Folder: Experimental-IV/Proyecto/DRX

Note: README.md
# Experimental-IV
Códigos desarrollados en el curso de Experimental IV con Alejandro Vélez Zea

File: 7060.csv
[Measurement conditions]
Sample identification,7060
Comment - 1,"Configuration=Plataforma Reflexion-Transmision spinner, Owner=User-1, Creation date=2/3/2023 7:20:03 AM"
Comment - 2,"Goniometer=Omega/2Theta; Minimum step size 2Theta:0.0001; Minimum step size Omega:0.0001"
Comment - 3,"Sample stage=Reflection-transmission spinner; Minimum step size Phi:0.1"
Comment - 4,"Diffractometer system=EMPYREAN"
Comment - 5,"Measurement program=C:\PANalytical\Data Collector\Programs\DRX01-005-5-80.xrdmp, Identifier={F6BCA4AE-3CE5-429B-BFE0-24F75AE8A160}"
Comment - 6,"Batch program=C:\PANalytical\Data Collector\Programs\DRX-11-03-2025.xrdmp, Identifier={AA0EBF15-5E9A-4A2E-A19D-1EE3EE637F25}"
Anode material,Cu
K-Alpha1 wavelength,1.5406
K-Alpha2 wavelength,1.54443
Ratio K-Alpha2/K-Alpha1,0.500
Divergence slit,Fixed,0.5
Monochromator used,NO
Generator voltage, 45
Tube current, 40
File date and time,11/Mar/2025 12:27
Unit cell,
h k l, 0 0 0
Scan axis,Gonio
Scan range,5,80.0002
Scan step size,0.0525211
No. of points, 1428
Scan type,CONTINUOUS
Phi,206.2
Time per step,43.605
[Scan points]
Angle,Intensity
5.02626,3482.0
5.28887,3417.0
5.55147,3152.0
5.81408,3086.0
6.07668,3106.0
6.33929,3198.0
6.60189,3154.0
6.8645,3081.0
7.12711,3085.0
7.38971,3142.0
7.65232,3187.0
7.91492,3158.0
8.17753,3199.0
8.44013,3036.0
8.70274,2983.0
8.96535,3064.0
9.22795,2955.0
9.49056,3087.0
9.75316,2929.0
10.0158,3069.0
10.2784,2947.0
10.541,3029.0
10.8036,2833.0
11.0662,2864.0
11.3288,2912.0
11.5914,2881.0
11.854,2850.0
12.1166,2807.0
12.3792,2922.0
12.6418,2752.0
12.9044,2783.0
13.167,2731.0
13.4296,2709.0
13.6922,2752.0
13.9549,2714.0
14.2175,2638.0
14.4801,2690.0
14.7427,2588.0
15.0053,2628.0
15.2679,2506.0
15.5305,2452.0
15.7931,2505.0
16.0557,2592.0
16.3183,2540.0
16.5809,2531.0
16.8435,2452.0
17.1061,2456.0
17.3687,2487.0
17.6313,2535.0
17.8939,2407.0
18.1565,2377.0
18.4191,2453.0
18.6818,2408.0
18.9444,2404.0
19.207,2367.0
19.4696,2423.0
19.7322,2463.0
19.9948,2348.0
20.2574,2439.0
20.52,2387.0
20.7826,2398.0
21.0452,2424.0
21.3078,2380.0
21.5704,2351.0
21.833,2447.0
22.0956,2333.0
22.3582,2409.0
22.6208,2391.0
22.8834,2431.0
23.146,2425.0
23.4087,2351.0
23.6713,2447.0
23.9339,2398.0
24.1965,2271.0
24.4591,2386.0
24.7217,2144.0
24.9843,2300.0
25.2469,2196.0
25.5095,2221.0
25.7721,2186.0
26.0347,2151.0
26.2973,2106.0
26.5599,2200.0
26.8225,2129.0
27.0851,2163.0
27.3477,2183.0
27.6103,2020.0
27.873,2157.0
28.1356,2013.0
28.3982,2102.0
28.6608,2017.0
28.9234,1926.0
29.186,1940.0
29.4486,1949.0
29.7112,1871.0
29.9738,1954.0
30.2364,1936.0
30.499,1901.0
30.7616,1896.0
31.0242,1931.0
31.2868,1873.0
31.5494,1942.0
31.812,4053.0
32.0746,3293.0
32.3372,1910.0
32.5999,1801.0
32.8625,1744.0
33.1251,1741.0
33.3877,1743.0
33.6503,1781.0
33.9129,1703.0
34.1755,1642.0
34.4381,2405.0
34.7007,3751.0
34.9633,1706.0
35.2259,1530.0
35.4885,1657.0
35.7511,1662.0
36.0137,1744.0
36.2763,3759.0
36.5389,6661.0
36.8015,1619.0
37.0641,1534.0
37.3268,1470.0
37.5894,1507.0
37.852,1450.0
38.1146,1376.0
38.3772,1381.0
38.6398,1311.0
38.9024,1405.0
39.165,1349.0
39.4276,1324.0
39.6902,1310.0
39.9528,1264.0
40.2154,1357.0
40.478,1333.0
40.7406,1245.0
41.0032,1347.0
41.2658,1262.0
41.5284,1239.0
41.791,1250.0
42.0537,1302.0
42.3163,1315.0
42.5789,1239.0
42.8415,1232.0
43.1041,1294.0
43.3667,1298.0
43.6293,1208.0
43.8919,1180.0
44.1545,1201.0
44.4171,1146.0
44.6797,1217.0
44.9423,1194.0
45.2049,1154.0
45.4675,1223.0
45.7301,1172.0
45.9927,1163.0
46.2553,1095.0
46.518,1163.0
46.7806,1015.0
47.0432,1132.0
47.3058,1151.0
47.5684,1536.0
47.831,2338.0
48.0936,1124.0
48.3562,1131.0
48.6188,1126.0
48.8814,1131.0
49.144,1124.0
49.4066,985.0
49.6692,1060.0
49.9318,1034.0
50.1944,1071.0
50.457,1072.0
50.7196,1103.0
50.9822,1115.0
51.2449,1022.0
51.5075,1101.0
51.7701,1036.0
52.0327,1054.0
52.2953,1023.0
52.5579,1005.0
52.8205,998.0
53.0831,1021.0
53.3457,1026.0
53.6083,977.0
53.8709,949.0
54.1335,998.0
54.3961,965.0
54.6587,1055.0
54.9213,953.0
55.1839,950.0
55.4465,1074.0
55.7091,989.0
55.9718,938.0
56.2344,1084.0
56.497,1163.0
56.7596,4442.0
57.0222,1192.0
57.2848,982.0
57.5474,1006.0
57.81,982.0
58.0726,964.0
58.3352,948.0
58.5978,997.0
58.8604,923.0
59.123,914.0
59.3856,949.0
59.6482,929.0
59.9108,889.0
60.1734,923.0
60.436,949.0
60.6987,904.0
60.9613,920.0
61.2239,876.0
61.4865,868.0
61.7491,899.0
62.0117,922.0
62.2743,918.0
62.5369,906.0
62.7995,1012.0
63.0621,1979.0
63.3247,1023.0
63.5873,866.0
63.8499,917.0
64.1125,905.0
64.3751,836.0
64.6377,896.0
64.9003,887.0
65.163,885.0
65.4256,903.0
65.6882,879.0
65.9508,865.0
66.2134,910.0
66.476,1220.0
66.7386,1039.0
67.0012,877.0
67.2638,820.0
67.5264,897.0
67.789,915.0
68.0516,2632.0
68.3142,1607.0
68.5768,888.0
68.8394,849.0
69.102,1009.0
69.3646,1157.0
69.6272,796.0
69.8899,814.0
70.1525,778.0
70.4151,805.0
70.6777,792.0
70.9403,847.0
71.2029,723.0
71.4655,743.0
71.7281,726.0
71.9907,778.0
72.2533,742.0
72.5159,740.0
72.7785,795.0
73.0411,788.0
73.3037,755.0
73.5663,699.0
73.8289,751.0
74.0915,763.0
74.3541,741.0
74.6168,725.0
74.8794,734.0
75.142,731.0
75.4046,789.0
75.6672,734.0
75.9298,675.0
76.1924,714.0
76.455,727.0
76.7176,741.0
76.9802,753.0
77.2428,828.0
77.5054,662.0
77.768,719.0
78.0306,687.0
78.2932,720.0
78.5558,699.0
78.8184,655.0
79.081,693.0
79.3437,673.0
79.6063,672.0
79.8689,680.0
79.9739,656.0

File: 7061.csv
[Measurement conditions]
Sample identification,7061
Comment - 1,"Configuration=Plataforma Reflexion-Transmision spinner, Owner=User-1, Creation date=2/3/2023 7:20:03 AM"
Comment - 2,"Goniometer=Omega/2Theta; Minimum step size 2Theta:0.0001; Minimum step size Omega:0.0001"
Comment - 3,"Sample stage=Reflection-transmission spinner; Minimum step size Phi:0.1"
Comment - 4,"Diffractometer system=EMPYREAN"
Comment - 5,"Measurement program=C:\PANalytical\Data Collector\Programs\DRX01-005-5-80.xrdmp, Identifier={F6BCA4AE-3CE5-429B-BFE0-24F75AE8A160}"
Comment - 6,"Batch program=C:\PANalytical\Data Collector\Programs\DRX-11-03-2025.xrdmp, Identifier={AA0EBF15-5E9A-4A2E-A19D-1EE3EE637F25}"
Anode material,Cu
K-Alpha1 wavelength,1.5406
K-Alpha2 wavelength,1.54443
Ratio K-Alpha2/K-Alpha1,0.500
Divergence slit,Fixed,0.5
Monochromator used,NO
Generator voltage, 45
Tube current, 40
File date and time,11/Mar/2025 12:33
Unit cell,
h k l, 0 0 0
Scan axis,Gonio
Scan range,5,80.0002
Scan step size,0.0525211
No. of points, 1428
Scan type,CONTINUOUS
Phi,279.9
Time per step,43.605
[Scan points]
Angle,Intensity
5.02626,3361.0
5.28887,3186.0
5.55147,3143.0
5.81408,2918.0
6.07668,3072.0
6.33929,3048.0
6.60189,3072.0
6.8645,3011.0
7.12711,3145.0
7.38971,3083.0
7.65232,3022.0
7.91492,2933.0
8.17753,3062.0
8.44013,3168.0
8.70274,2961.0
8.96535,3050.0
9.22795,2955.0
9.49056,2953.0
9.75316,2999.0
10.0158,2961.0
10.2784,2900.0
10.541,2892.0
10.8036,2950.0
11.0662,2810.0
11.3288,2730.0
11.5914,2876.0
11.854,2884.0
12.1166,2769.0
12.3792,2711.0
12.6418,2729.0
12.9044,2761.0
13.167,2710.0
13.4296,2621.0
13.6922,2658.0
13.9549,2622.0
14.2175,2551.0
14.4801,2610.0
14.7427,2552.0
15.0053,2500.0
15.2679,2528.0
15.5305,2450.0
15.7931,2435.0
16.0557,2460.0
16.3183,2435.0
16.5809,2369.0
16.8435,2420.0
17.1061,2434.0
17.3687,2384.0
17.6313,2301.0
17.8939,2366.0
18.1565,2248.0
18.4191,2336.0
18.6818,2309.0
18.9444,2297.0
19.207,2222.0
19.4696,2363.0
19.7322,2376.0
19.9948,2326.0
20.2574,2372.0
20.52,2368.0
20.7826,2338.0
21.0452,2401.0
21.3078,2382.0
21.5704,2279.0
21.833,2289.0
22.0956,2351.0
22.3582,2252.0
22.6208,2213.0
22.8834,2249.0
23.146,2180.0
23.4087,2280.0
23.6713,2216.0
23.9339,2305.0
24.1965,2295.0
24.4591,2274.0
24.7217,2249.0
24.9843,2107.0
25.2469,2093.0
25.5095,2179.0
25.7721,2156.0
26.0347,2119.0
26.2973,2062.0
26.5599,2102.0
26.8225,2015.0
27.0851,2063.0
27.3477,2020.0
27.6103,2039.0
27.873,1930.0
28.1356,1861.0
28.3982,1873.0
28.6608,1933.0
28.9234,1949.0
29.186,1897.0
29.4486,1841.0
29.7112,1891.0
29.9738,1776.0
30.2364,1774.0
30.499,1759.0
30.7616,1769.0
31.0242,1826.0
31.2868,1814.0
31.5494,1824.0
31.812,3608.0
32.0746,2353.0
32.3372,1674.0
32.5999,1606.0
32.8625,1664.0
33.1251,1533.0
33.3877,1456.0
33.6503,1542.0
33.9129,1577.0
34.1755,1534.0
34.4381,2117.0
34.7007,2139.0
34.9633,1533.0
35.2259,1473.0
35.4885,1365.0
35.7511,1422.0
36.0137,1506.0
36.2763,3367.0
36.5389,3094.0
36.8015,1455.0
37.0641,1360.0
37.3268,1305.0
37.5894,1241.0
37.852,1225.0
38.1146,1265.0
38.3772,1205.0
38.6398,1146.0
38.9024,1187.0
39.165,1229.0
39.4276,1176.0
39.6902,1138.0
39.9528,1148.0
40.2154,1145.0
40.478,1097.0
40.7406,1118.0
41.0032,1095.0
41.2658,1067.0
41.5284,1168.0
41.791,1102.0
42.0537,1100.0
42.3163,1133.0
42.5789,1072.0
42.8415,1040.0
43.1041,1116.0
43.3667,1052.0
43.6293,1047.0
43.8919,1079.0
44.1545,997.0
44.4171,981.0
44.6797,971.0
44.9423,993.0
45.2049,973.0
45.4675,965.0
45.7301,962.0
45.9927,1058.0
46.2553,1003.0
46.518,987.0
46.7806,956.0
47.0432,968.0
47.3058,1005.0
47.5684,1321.0
47.831,1517.0
48.0936,960.0
48.3562,908.0
48.6188,925.0
48.8814,847.0
49.144,926.0
49.4066,943.0
49.6692,889.0
49.9318,901.0
50.1944,885.0
50.457,915.0
50.7196,877.0
50.9822,849.0
51.2449,864.0
51.5075,898.0
51.7701,849.0
52.0327,819.0
52.2953,913.0
52.5579,833.0
52.8205,900.0
53.0831,821.0
53.3457,823.0
53.6083,810.0
53.8709,827.0
54.1335,792.0
54.3961,828.0
54.6587,839.0
54.9213,823.0
55.1839,828.0
55.4465,824.0
55.7091,773.0
55.9718,796.0
56.2344,842.0
56.497,896.0
56.7596,2223.0
57.0222,940.0
57.2848,860.0
57.5474,838.0
57.81,787.0
58.0726,814.0
58.3352,827.0
58.5978,803.0
58.8604,779.0
59.123,823.0
59.3856,829.0
59.6482,798.0
59.9108,844.0
60.1734,815.0
60.436,821.0
60.6987,782.0
60.9613,737.0
61.2239,779.0
61.4865,853.0
61.7491,838.0
62.0117,853.0
62.2743,822.0
62.5369,748.0
62.7995,838.0
63.0621,1280.0
63.3247,794.0
63.5873,800.0
63.8499,742.0
64.1125,777.0
64.3751,757.0
64.6377,751.0
64.9003,731.0
65.163,802.0
65.4256,697.0
65.6882,701.0
65.9508,784.0
66.2134,748.0
66.476,1004.0
66.7386,784.0
67.0012,736.0
67.2638,686.0
67.5264,744.0
67.789,755.0
68.0516,2091.0
68.3142,1008.0
68.5768,701.0
68.8394,732.0
69.102,811.0
69.3646,1016.0
69.6272,706.0
69.8899,660.0
70.1525,703.0
70.4151,674.0
70.6777,670.0
70.9403,649.0
71.2029,603.0
71.4655,640.0
71.7281,667.0
71.9907,658.0
72.2533,612.0
72.5159,626.0
72.7785,679.0
73.0411,614.0
73.3037,644.0
73.5663,615.0
73.8289,631.0
74.0915,620.0
74.3541,652.0
74.6168,661.0
74.8794,561.0
75.142,569.0
75.4046,604.0
75.6672,644.0
75.9298,584.0
76.1924,595.0
76.455,594.0
76.7176,579.0
76.9802,640.0
77.2428,645.0
77.5054,549.0
77.768,573.0
78.0306,563.0
78.2932,599.0
78.5558,554.0
78.8184,600.0
79.081,605.0
79.3437,561.0
79.6063,598.0
79.8689,567.0
79.9739,572.0